Folder: Log-XRF-Depth

File: Log_XRF_Depths.csv
XRF Depth,SiO2,CaO,MgO,Al2O3,Fe2O3,K2O,AF10,AF20,AF30,AF60,AF90,AO10,AO20,AO30,AO60,AO90,AT10,AT20,AT30,AT60,AT90,AFCO60,AORT,AORX,BFV,CBP1,CBP2,CBP3,CBP4,CBP5,CBP6,CBP7,CBP8,CDF,CFTC,CMFF,CMFF_SIG,CMR_PHI_CO,CMRP_3MS,CNTC,CTEM,DCAL,DNPH,DPHZ,DPH8,DSOZ,DWAL_WALK2,DWCA_WALK2,DWFE_WALK2,DWGD_WALK2,DWSI_WALK2,DWSU_WALK2,DWTI_WALK2,ECGR,ECST,ESUF_WALK2,GDEV,GR,GR_EDTC,GTEM,HCAL,HDRA,HDRB,HGR,HMIN,HMNO,HNPO,HPRA,HTNP,KSDR,KTIM,NPHI,NPOR,PEF8,PEFZ,PXND_HILT,QCPMT,RHGE_WALK2,RHO8,RHOZ,RSOZ,RXO8,RXOZ,SP,SPAR,STIT,T2LM,T2LM_SIG,TCMR,TENS,TNPH,WCAR_WALK2,WCLA_WALK2,WPYR_WALK2,WQFM_WALK2,DTCO,DTSM
10396,70.9674,4.81649,1.2219,13.8658,5.28291,3.84553,4.3699,4.813,4.7731,4.7559,4.8,4.2111,4.3362,4.2053,5.098,5.0717,4.3923,4.8306,4.6153,4.7297,4.761,210.2632,4.7734,3.3502,0.173,0.0341,0.036,0.0648,0.0542,0.0061,0.0001,0.0012,0.0005,2014.579,893.7474,0.024,0.0044,0.0008,0.1269,2431.17,183.3412,1.5418,-0.022,0.1078,0.0466,0.1394,0.0826,0.043,0.0435,0,0.2752,0.0357,0.0055,89.8232,61.2084,0.7596,2.4573,80.0587,78.5647,182.2964,10.2918,-0.0242,0.1225,76.2696,7.3289,6.4858,0.2852,-0.8935,0.2485,0.1278,0.3219,0.2627,0.2694,8.3686,8.421,0.2023,0.6794,2.7725,2.6302,2.5257,0.0001,9.2493,9.3127,-206.6696,-206.7528,4.0739,4.5511,-999.25,0.197,5065,0.2486,0.0406,0.4198,0.0669,0.4727,80.3011,152.9656
10432,76.9479,0.994883,1.16586,12.7236,4.4613,3.70644,9.3487,11.2633,11.1905,10.5656,10.1789,10.0321,14.2267,11.8213,9.6504,9.377,9.1936,11.3667,10.628,9.63,10.01,94.6468,8.5227,8.1629,0.0651,0.0246,0.0307,0.0097,0,0.0008,0.0003,0.0007,0.0006,1475.91,1485.22,0.0024,0.0037,0.0008,0.0122,3383.26,183.3412,0.9487,-0.0171,0.0747,0.0675,0.0477,0.0687,0.0082,0.0382,5.3022,0.3379,0.0178,0.0061,92.5051,63.5495,0.5797,2.5503,84.5745,94.1248,182.6319,9.6987,-0.0067,-0.0329,84.4261,13.0583,11.5791,0.2006,0.0953,0.178,0.0002,0.0003,0.1768,0.2018,3.2541,3.3244,0.1537,0.308,2.7357,2.5946,2.5823,0.0001,16.549,17.7215,-206.428,-206.4037,0,1.5762,-999.25,0.0675,4388.4,0.1779,0,0.3454,0.0333,0.6213,74.3419,123.5537
10469,73.8345,7.07578,1.11028,10.7332,4.15979,3.086466,12.487,16.0315,16.0971,15.3291,14.2805,12.8574,17.5073,18.192,16.076,15.8683,12.1137,17.7098,17.3599,16.6541,14.7969,65.2353,16.4133,8.3588,0.0666,0.0267,0.028,0.0106,0.0031,0.0031,0,0,0,1531.08,1715.75,0.005,0.0039,0.0008,0.0169,3398.44,183.3412,0.7485,-0.0148,0.0523,0.0498,0,0.0558,0.0689,0.0305,7.7003,0.2901,0.0169,0.0033,84.8877,62.379,0.5287,2.4484,78.2994,81.4105,182.7997,9.4985,-0.0011,-0.0101,78.5591,14.2881,12.6736,0.1419,0.0308,0.1361,0.0003,0.0015,0.1544,0.1355,3.6302,3.7199,0.1212,0,2.7307,2.6249,2.6206,0.0001,18.1187,19.5176,-208.7652,-208.7579,0,1.68,-999.25,0.0716,4635,0.1362,0.1103,0.2805,0.0316,0.5776,70.6858,119.2418
10505,80.7095,3.8175,1.10259,10.132,2.52831,1.71016,23.9379,32.0907,32.6023,29.2525,28.274,25.5937,34.799,34.4483,28.1749,27.8833,23.6168,32.6943,31.5115,29.1762,25.9276,34.1851,30.259,12.6759,0.0567,0.0128,0.0175,0.0218,0.0051,0.0077,0.0005,0,0,1514.09,2537.377,0.0086,0.004,0.0008,0.035,4354.46,185.2627,0.4789,-0.012,0.0632,0.0625,0.0432,0.0408,0.0551,0.0232,8.3238,0.3313,0.0014,0.0039,86.7094,60.0379,0.4753,2.6706,80.9536,82.3582,183.303,9.2289,-0.0049,-0.0238,83.2812,38.5314,34.2908,0.1026,0.0947,0.101,0.001,0.0041,0.1015,0.1025,3.187,3.2368,0.0968,0,2.6967,2.6032,2.6019,0.0001,49.104,47.6789,-213.6023,-213.7141,0,3.776,-999.25,0.0653,4518.4,0.101,0.0732,0.2053,0.0025,0.719,66.475,106.4363
10541,68.3012,15.784,1.02683,9.91497,3.19022,1.78277,38.8407,96.3923,132.2194,111.1941,105.6958,38.0938,95.4857,114.1354,92.834,97.7101,38.0668,95.1982,125.0537,105.6047,98.4187,8.9933,111.8973,10.5108,0.0253,0.0073,0.0091,0.0052,0.0077,0.0038,0,0,0.0002,1520.2,2924.45,0.008,0.0037,0.0008,0.0169,4603.62,185.3176,0.5575,-0.0119,0.0335,0.0317,0,0.044,0.1273,0.0249,4.8242,0.2416,0.01,0.0016,78.2336,62.379,0.4326,2.3634,72.7816,74.6505,183.8063,9.3075,-0.0011,-0.0031,77.2234,128.5198,114.9312,0.0821,0.0155,0.082,0.0001,0.0013,0.083,0.0834,3.7781,3.7418,0.0772,0.1364,2.7223,2.6558,2.6527,0.0014,167.0547,173.586,-221.5864,-221.4538,0,4.3234,-999.25,0.0333,4605.167,0.082,0.2675,0.2213,0.0187,0.4925,65.1839,106.5017
10578,52.0789,35.0159,1.646,6.70005,3.42523,1.13402,37.7497,79.6512,89.8395,71.5439,72.9244,45.1895,116.2347,189.8769,88.9606,91.3844,44.1458,127.5048,159.3792,91.9982,106.0418,13.9774,94.0111,13.9272,0.0178,0.0005,0.0033,0.0093,0.0077,0.0035,0.0009,0,0,1548.812,4660.94,0.0074,0.0036,0.0008,0.0213,5870.05,185.3176,0.2555,-0.0087,0.0087,-0.0049,0.0274,0.0406,0.1975,0.0224,0.8646,0.1662,0.0131,0.0016,55.8136,60.0379,0.3488,2.3623,52.6432,54.9801,184.3096,9.0055,-0.0035,0.0044,42.8329,373.8307,334.5928,0.0282,0.0722,0.0451,0.0002,0.0003,0.0278,0.0282,4.5328,4.3628,0.0428,0.1209,2.7333,2.7183,2.6952,0.0001,482.1418,256.79,-221.4545,-221.2688,0,10.1033,-999.25,0.0251,4571.5,0.0449,0.4562,0.2042,0.0244,0.3151,60.2726,100.841
10615,74.702,5.16887,1.23555,12.6098,3.33199,2.95172,33.0236,64.9948,79.1916,70.6611,67.0947,25.1244,42.8174,44.4055,40.5762,40.5265,28.6339,51.8788,60.2602,54.8167,52.9181,14.1521,46.6539,12.3033,0.051,0.0178,0.0146,0.0127,0.0065,0,0.0016,0.0007,0,1559.33,3139.95,0.0029,0.0038,0.0008,0.0215,4950.35,185.3176,0.4096,-0.011,0.0358,0.0394,0,0.0379,0.1096,0.0204,5.0689,0.2738,0.0143,0.002,92.6534,60.0379,0.4471,2.4663,86.776,79.7951,184.8129,9.1596,-0.0019,0.0176,92.1531,56.2604,50.1453,0.1047,0.0391,0.0832,0.0002,0.0003,0.0892,0.1092,3.3391,3.5059,0.0783,0.331,2.7161,2.6426,2.6488,0.0001,71.8268,89.8539,-221.5772,-221.4411,0,2.461,-999.25,0.0539,4654.4,0.083,0.2199,0.1907,0.0267,0.5627,67.6866,108.502
10651,80.4835,7.66221,0.838734,7.61098,1.95433,1.45027,38.2666,91.7734,120.287,102.3574,95.6132,37.9651,91.0665,108.9493,90.1348,93.5031,38.8233,94.3236,124.0774,104.5755,92.8591,9.7697,108.0887,12.1715,0.0329,0.0011,0.0049,0.0205,0.0078,0.0026,0.0038,0.0011,0,1583.97,4706.03,0.009,0.0042,0.0008,0.0358,5843.08,185.3176,0.2825,-0.0088,0.0462,0.0417,0,0.0279,0.1016,0.0134,4.4718,0.3022,0.0162,0.0035,62.6887,63.5495,0.4093,1.9042,59.0544,61.7458,185.3162,9.0325,-0.0035,-0.0148,57.6196,70.0171,63.0069,0.0495,0.0852,0.0428,0.0012,0.0027,0.0331,0.0498,3.3691,3.4255,0.0445,0.2931,2.7039,2.6387,2.631,0.0084,101.7162,114.8172,-229.2096,-229.1915,0,9.9193,-999.25,0.0419,4679.5,0.0427,0.1982,0.1402,0.0288,0.6328,60.7938,98.5074
10688,74.103,7.61444,1.34774,10.7737,3.87994,2.2812,40.261,85.7302,104.6356,91.074,87.9195,46.0647,116.9088,134.0168,105.8133,109.2528,42.2125,97.8124,117.8003,101.1929,96.2778,10.9801,117.9333,16.0211,0.0362,0.0112,0.0122,0.0081,0.0083,0.002,0,0,0.0001,1547.74,2541.428,0.0057,0.0034,0.0008,0.0186,4446.34,187.2941,0.2987,-0.011,0.0547,0.0643,0.0545,0.0402,0.09,0.0216,9.5154,0.2929,0.0109,0.0037,111.5914,60.0379,0.4834,2.3952,105.0441,106.1558,185.8195,9.0487,-0.008,-0.0394,106.343,143.4202,128.2137,0.1198,0.1205,0.1065,0.0001,0.0008,0.1112,0.1177,3.5275,3.6163,0.0999,0,2.7109,2.6001,2.6164,0.0001,183.7007,153.6089,-232.3125,-232.2267,0,3.011,-999.25,0.0419,4666,0.1065,0.167,0.202,0.0204,0.6106,63.9691,105.7628
10724,77.2888,11.3846,1.59743,6.50716,2.00436,1.21764,45.5466,133.4233,204.6113,157.2965,159.5553,41.6753,93.1259,92.1731,79.3643,79.3906,43.5453,108.0494,184.2782,141.6319,132.7483,6.3574,93.0468,14.4264,0.0109,0,0.0009,0.0037,0.0099,0.002,0.0046,0.0009,0,1546.77,5708.42,0.0113,0.0042,0.0008,0.0212,6436.88,187.2941,0.2709,-0.0081,0.0105,0.0073,0.0195,0.0262,0.1862,0.0142,5.3911,0.2047,0.0064,0.0023,49.7372,61.2084,0.3666,2.4483,46.8787,47.8445,186.3228,9.0209,0.0035,0.0271,49.2602,145.3377,130.3737,0.0381,0.0062,0.0295,0.0007,0.0001,0.022,0.0367,4.1447,4.1589,0.0289,0.1421,2.7084,2.6975,2.692,0.0094,206.3903,290.2343,-227.239,-226.9023,0,27.5444,-999.25,0.0221,4690.67,0.0296,0.426,0.1316,0.012,0.4304,57.751,96.0038
10760,63.1589,26.7737,1.46108,4.94476,2.69641,0.965095,63.143,296.6448,446.502,288.1479,245.8509,66.6329,427.462,529.186,261.5648,302.122,67.1376,436.2221,502.0023,389.7603,307.9178,3.4704,320.5115,21.3085,0.0148,0.008,0.0034,0.0015,0.0048,0.0074,0.0015,0,0,1534.66,5491.8,0.0117,0.004,0.0008,0.0151,6365.25,187.2941,0.1515,-0.0077,0.025,0.0146,0.0734,0.0246,0.2356,0.0136,4.4412,0.1496,0.0065,0.0012,42.9581,58.8674,0.3252,2.2847,40.7131,41.5537,186.8261,8.9015,-0.0066,-0.0283,40.6387,417.6518,374.3603,0.0309,0.1626,0.0337,0.0001,0.0005,0.0219,0.0306,4.3528,4.4635,0.0335,0.0614,2.7159,2.685,2.6673,0.0084,1142.1,1192.35,-233.3929,-232.9733,0,6.523,-999.25,0.0265,4629.83,0.0337,0.5587,0.1236,0.0122,0.3055,55.7963,94.3803
10796,65.898,27.2481,0,4.92373,1.19131,0.738861,53.6497,219.0215,407.5989,313.8246,250.9315,47.9631,171.4158,217.5578,144.9667,143.3291,52.134,201.9827,439.221,337.7188,264.0166,3.1865,212.7485,15.7021,0.0218,0.0038,0.0033,0.0098,0.0065,0.0028,0.0039,0.0004,0,1554.41,5836.09,0.0088,0.0042,0.0008,0.0235,6563.35,189.2706,0.1877,-0.0077,0.034,0.0339,0.0215,0.022,0.1969,0.0106,1.5389,0.2007,0.0154,0.0013,42.5692,58.8674,0.3431,1.7302,40.277,40.5803,187.8327,8.9377,-0.0025,-0.022,42.8688,176.4966,158.8951,0.0326,0.08,0.0295,0.0003,0.0014,0.0196,0.0333,3.7844,4.0687,0.0317,0.1611,2.7141,2.652,2.6519,0.0081,292.0697,377.0572,-229.7286,-229.5817,0,9.61,-999.25,0.0306,4678,0.0296,0.4547,0.1105,0.0227,0.412,56.6257,94.445
10832,73.4065,13.7242,1.65322,7.18541,2.52134,1.50928,56.4632,169.0729,205.6551,157.1559,152.267,53.9228,145.0653,142.8618,111.5866,121.0943,54.6668,145.6208,166.1943,134.9147,128.5075,6.3631,143.2063,15.8053,0.0209,0.0037,0.0097,0.0046,0.0053,0.0036,0.0028,0,0.0004,1550.44,3591.13,0.0092,0.0042,0.0008,0.0167,5230.92,189.2706,0.0476,-0.0084,0.0487,0.0495,0,0.0384,0.1206,0.0213,2.3902,0.2597,0.0095,0.0022,84.148,58.8674,0.4352,2.4955,80.1373,85.1027,188.3361,8.7976,-0.0043,-0.0417,80.1451,110.3706,99.2449,0.0854,0.1146,0.07,0.0002,0.0014,0.0743,0.0844,3.4561,3.5692,0.0686,0.2274,2.7139,2.6253,2.6267,0.0055,164.5104,159.375,-241.5882,-241.4133,0,6.9054,-999.25,0.0301,4748.2,0.07,0.2493,0.1929,0.0178,0.5399,60.1528,100.1023
10868,71.5603,10.5036,2.3698,10.3262,3.14889,2.09116,41.6863,85.8112,96.6963,85.3851,81.6156,40.9036,88.1855,88.9987,75.9101,77.3776,41.7244,86.5029,97.0525,86.3737,79.8434,11.7116,85.9594,19.6183,0.0259,0.0029,0.0109,0.007,0.0067,0,0.0001,0.0018,0.0004,1538.86,3245.97,0.004,0.0041,0.0008,0.016,4953.98,189.2706,-0.0202,-0.0083,0.0345,0.0287,0.0331,0.0389,0.1331,0.0225,7.4246,0.2434,0.0028,0.0022,83.9282,58.8674,0.4319,2.19,80.1821,87.1298,188.9652,8.7298,-0.0053,-0.019,84.5572,78.6378,70.1943,0.0777,0.1115,0.0791,0.0001,0.0002,0.0837,0.0797,3.7478,3.838,0.0749,0.4737,2.7103,2.6609,2.651,0.0001,100.5583,121.667,-239.8217,-239.4909,0,5.4015,-999.25,0.0299,4774.5,0.0791,0.2831,0.1953,0.0052,0.5165,61.9208,102.2228
10898,66.5854,26.4417,0,4.88328,1.27395,0.8157,60.9298,450.123,1165.65,479.9229,361.8377,63.4643,703.623,849.3463,316.6288,389.8896,62.1467,559.0374,1087.69,516.8899,403.9741,2.0837,404.9211,11.6819,0.015,0.0004,0.0031,0.0043,0.0115,0.0006,0,0,0.0017,1508.33,5631.23,0.0065,0.0041,0.0008,0.0181,6496.42,189.2706,-0.1034,-0.0069,0.0398,0.0332,0.0168,0.0173,0.2292,0.0088,5.1488,0.1705,0.0091,0.0013,52.8365,58.8674,0.3472,1.9472,50.6762,49.3532,189.846,8.6466,-0.0046,-0.0335,53.6367,416.115,372.8754,0.0378,0.1143,0.0339,0.0002,0,0.0233,0.0353,4.1572,4.1925,0.0368,0.0737,2.7088,2.6532,2.6419,0.0058,1037.26,907.7014,-252.3842,-251.9879,0,14.4477,-999.25,0.0216,4622.8,0.0339,0.5416,0.0867,0.0169,0.3547,55.6295,94.8584